Folder: photometry_sample/throughputs/baseline

Note: throughputs/baseline/README
# From Docushare collection 1777, v1.0, March 2010.
#  Updated from Docushare Collection 1777, March 2012. This update includes an update to the detector & the mirror surfaces.

The throughput curves in this directory should be considered 
'baseline' for the current behavior of LSST. 

Note that these throughput curves are subject to change as our knowledge
of the LSST systems improve and prototypes become available. 

m1.dat, m2.dat, m3.dat represent the current mirror throughputs used in the SRD.
lens1.dat, lens2.dat, lens3.dat represent the current lens throughputs ""
detector.dat is the current detector sensitivity in the SRD.

filter_u / g / r / i / z / y. dat represent the current filter (filter only!) 
  throughput curves used in the SRD. Note that y = y4 is the current baseline filter. 

atmos_std.dat is the standard atmospheric bandpass at X=1.2

total_*.dat throughput curves represent the combination of all components in the LSST 
  system - mirrors, lenses, filter, detector, and the zenith atmos_std.dat atmosphere. 

All curves are in nanometers, with throughput represented by a number between 0 and 1.

File: m1_ProtAl_Aged.dat
# Aged protected aluminum mirror coating - upward looking, V1, Date=February 27, 2012
# Simple loss model with fixed losses per filter band
# Filter % Loss
#   u      4.0
#   g      3.8
#   r      3.6
#   i      3.6
#   z      3.6
#   y      3.6
# Wavelength(nm) Reflectance(0-1)
300.00	0.87327
304.00	0.87404
308.00	0.87442
312.00	0.87481
316.00	0.87520
320.00	0.87558
324.00	0.87635
328.00	0.87673
332.00	0.87750
336.00	0.87789
340.00	0.87827
344.00	0.87866
348.00	0.87903
352.00	0.87941
356.00	0.87980
360.00	0.88018
364.00	0.88056
368.00	0.88132
372.00	0.88170
376.00	0.88246
380.00	0.88283
384.00	0.88322
388.00	0.88322
392.00	0.88359
396.00	0.88398
400.00	0.88398
404.00	0.88616
408.00	0.88616
412.00	0.88616
416.00	0.88616
420.00	0.88653
424.00	0.88653
428.00	0.88653
432.00	0.88692
436.00	0.88692
440.00	0.88653
444.00	0.88616
448.00	0.88616
452.00	0.88578
456.00	0.88540
460.00	0.88502
464.00	0.88502
468.00	0.88464
472.00	0.88426
476.00	0.88426
480.00	0.88388
484.00	0.88388
488.00	0.88388
492.00	0.88350
496.00	0.88312
500.00	0.88274
504.00	0.88235
508.00	0.88159
512.00	0.88121
516.00	0.88082
520.00	0.88045
524.00	0.88006
528.00	0.87968
532.00	0.87929
536.00	0.87929
540.00	0.87891
544.00	0.87853
548.00	0.87814
552.00	0.87814
556.00	0.87958
560.00	0.87919
564.00	0.87919
568.00	0.87919
572.00	0.87919
576.00	0.87881
580.00	0.87881
584.00	0.87803
588.00	0.87764
592.00	0.87687
596.00	0.87648
600.00	0.87609
604.00	0.87532
608.00	0.87492
612.00	0.87454
616.00	0.87414
620.00	0.87376
624.00	0.87336
628.00	0.87296
632.00	0.87296
636.00	0.87258
640.00	0.87218
644.00	0.87179
648.00	0.87179
652.00	0.87061
656.00	0.86864
660.00	0.86785
664.00	0.86586
668.00	0.86427
672.00	0.86347
676.00	0.86146
680.00	0.86066
684.00	0.85863
688.00	0.85742
692.00	0.85655
696.00	0.85532
700.00	0.85369
704.00	0.85287
708.00	0.85205
712.00	0.85080
716.00	0.84998
720.00	0.84915
724.00	0.84832
728.00	0.84749
732.00	0.84666
736.00	0.84583
740.00	0.84499
744.00	0.84415
748.00	0.84331
752.00	0.84247
756.00	0.84120
760.00	0.84036
764.00	0.83951
768.00	0.83824
772.00	0.83738
776.00	0.83653
780.00	0.83567
784.00	0.83439
788.00	0.83353
792.00	0.83267
796.00	0.83137
800.00	0.83051
804.00	0.83051
808.00	0.83051
812.00	0.83008
816.00	0.83008
820.00	0.83008
824.00	0.83008
828.00	0.83008
832.00	0.82965
836.00	0.82965
840.00	0.82965
844.00	0.82965
848.00	0.82920
852.00	0.83051
856.00	0.83224
860.00	0.83396
864.00	0.83611
868.00	0.83781
872.00	0.83951
876.00	0.84120
880.00	0.84289
884.00	0.84456
888.00	0.84624
892.00	0.84791
896.00	0.84957
900.00	0.85122
904.00	0.85327
908.00	0.85613
912.00	0.85817
916.00	0.85979
920.00	0.86301
924.00	0.86462
928.00	0.86701
932.00	0.86899
936.00	0.87214
940.00	0.87332
944.00	0.87527
948.00	0.87722
952.00	0.87877
956.00	0.87916
960.00	0.87955
964.00	0.87993
968.00	0.88032
972.00	0.88109
976.00	0.88147
980.00	0.88186
984.00	0.88225
988.00	0.88262
992.00	0.88301
996.00	0.88339
1000.00	0.88415
1004.00	0.88454
1008.00	0.88492
1012.00	0.88530
1016.00	0.88569
1020.00	0.88606
1024.00	0.88644
1028.00	0.88683
1032.00	0.88720
1036.00	0.88759
1040.00	0.88796
1044.00	0.88834
1048.00	0.88873
1052.00	0.88910
1056.00	0.88948
1060.00	0.88985
1064.00	0.89023
1068.00	0.89061
1072.00	0.89098
1076.00	0.89136
1080.00	0.89173
1084.00	0.89211
1088.00	0.89249
1092.00	0.89286
1096.00	0.89324
1100.00	0.89361
1104.00	0.89399
1108.00	0.89436
1112.00	0.89473
1116.00	0.89511
1120.00	0.89511
1124.00	0.89547
1128.00	0.89585
1132.00	0.89623
1136.00	0.89659
1140.00	0.89697
1144.00	0.89734
1148.00	0.89734
1152.00	0.89771
1156.00	0.89808
1160.00	0.89845
1164.00	0.89882
1168.00	0.89919
1172.00	0.89919
1176.00	0.89956
1180.00	0.89993
1184.00	0.90030
1188.00	0.90066
1192.00	0.90066
1196.00	0.90104
1200.00	0.90140

File: m2_ProtAl_Aged.dat
# Aged protected aluminum mirror coating - downward looking, V1, Date=February 27, 2012
# Simple loss model with fixed losses per filter band
# Filter % Loss
#   u      3.7
#   g      3.5
#   r      3.3
#   i      3.3
#   z      3.3
#   y      3.3
# Wavelength(nm) Reflectance(0-1)
300.00	0.87591
304.00	0.87668
308.00	0.87707
312.00	0.87747
316.00	0.87785
320.00	0.87824
324.00	0.87901
328.00	0.87939
332.00	0.88016
336.00	0.88055
340.00	0.88093
344.00	0.88132
348.00	0.88169
352.00	0.88208
356.00	0.88246
360.00	0.88285
364.00	0.88323
368.00	0.88399
372.00	0.88437
376.00	0.88513
380.00	0.88551
384.00	0.88589
388.00	0.88589
392.00	0.88627
396.00	0.88665
400.00	0.88665
404.00	0.88884
408.00	0.88884
412.00	0.88884
416.00	0.88884
420.00	0.88921
424.00	0.88921
428.00	0.88921
432.00	0.88960
436.00	0.88960
440.00	0.88921
444.00	0.88884
448.00	0.88884
452.00	0.88846
456.00	0.88808
460.00	0.88770
464.00	0.88770
468.00	0.88731
472.00	0.88694
476.00	0.88694
480.00	0.88656
484.00	0.88656
488.00	0.88656
492.00	0.88617
496.00	0.88579
500.00	0.88541
504.00	0.88503
508.00	0.88426
512.00	0.88388
516.00	0.88349
520.00	0.88311
524.00	0.88273
528.00	0.88234
532.00	0.88196
536.00	0.88196
540.00	0.88157
544.00	0.88118
548.00	0.88080
552.00	0.88080
556.00	0.88215
560.00	0.88176
564.00	0.88176
568.00	0.88176
572.00	0.88176
576.00	0.88138
580.00	0.88138
584.00	0.88060
588.00	0.88021
592.00	0.87943
596.00	0.87905
600.00	0.87865
604.00	0.87788
608.00	0.87748
612.00	0.87709
616.00	0.87670
620.00	0.87631
624.00	0.87591
628.00	0.87552
632.00	0.87552
636.00	0.87513
640.00	0.87473
644.00	0.87434
648.00	0.87434
652.00	0.87316
656.00	0.87118
660.00	0.87038
664.00	0.86839
668.00	0.86680
672.00	0.86600
676.00	0.86398
680.00	0.86317
684.00	0.86114
688.00	0.85993
692.00	0.85914
696.00	0.85791
700.00	0.85627
704.00	0.85545
708.00	0.85462
712.00	0.85338
716.00	0.85255
720.00	0.85172
724.00	0.85089
728.00	0.85005
732.00	0.84922
736.00	0.84838
740.00	0.84754
744.00	0.84670
748.00	0.84586
752.00	0.84502
756.00	0.84374
760.00	0.84290
764.00	0.84205
768.00	0.84077
772.00	0.83991
776.00	0.83906
780.00	0.83820
784.00	0.83691
788.00	0.83605
792.00	0.83519
796.00	0.83389
800.00	0.83302
804.00	0.83302
808.00	0.83302
812.00	0.83259
816.00	0.83259
820.00	0.83259
824.00	0.83259
828.00	0.83259
832.00	0.83216
836.00	0.83216
840.00	0.83216
844.00	0.83216
848.00	0.83171
852.00	0.83302
856.00	0.83476
860.00	0.83648
864.00	0.83864
868.00	0.84035
872.00	0.84205
876.00	0.84374
880.00	0.84544
884.00	0.84712
888.00	0.84880
892.00	0.85047
896.00	0.85214
900.00	0.85379
904.00	0.85585
908.00	0.85872
912.00	0.86076
916.00	0.86239
920.00	0.86562
924.00	0.86723
928.00	0.86963
932.00	0.87162
936.00	0.87478
940.00	0.87596
944.00	0.87792
948.00	0.87987
952.00	0.88143
956.00	0.88182
960.00	0.88221
964.00	0.88259
968.00	0.88298
972.00	0.88375
976.00	0.88414
980.00	0.88453
984.00	0.88491
988.00	0.88529
992.00	0.88568
996.00	0.88606
1000.00	0.88683
1004.00	0.88722
1008.00	0.88759
1012.00	0.88798
1016.00	0.88837
1020.00	0.88874
1024.00	0.88912
1028.00	0.88951
1032.00	0.88988
1036.00	0.89027
1040.00	0.89065
1044.00	0.89103
1048.00	0.89141
1052.00	0.89179
1056.00	0.89217
1060.00	0.89254
1064.00	0.89292
1068.00	0.89330
1072.00	0.89368
1076.00	0.89405
1080.00	0.89443
1084.00	0.89481
1088.00	0.89518
1092.00	0.89556
1096.00	0.89594
1100.00	0.89632
1104.00	0.89669
1108.00	0.89706
1112.00	0.89744
1116.00	0.89782
1120.00	0.89782
1124.00	0.89818
1128.00	0.89856
1132.00	0.89894
1136.00	0.89930
1140.00	0.89968
1144.00	0.90005
1148.00	0.90005
1152.00	0.90043
1156.00	0.90079
1160.00	0.90117
1164.00	0.90154
1168.00	0.90191
1172.00	0.90191
1176.00	0.90228
1180.00	0.90265
1184.00	0.90302
1188.00	0.90339
1192.00	0.90339
1196.00	0.90376
1200.00	0.90413

File: m3.dat
# Ideal (no losses) protected aluminum mirror coating, V2, Date=March 7, 2011
# Wavelength(nm) Reflectance(0-1)
300.00	0.90937
304.00	0.91017
308.00	0.91057
312.00	0.91098
316.00	0.91138
320.00	0.91178
324.00	0.91258
328.00	0.91298
332.00	0.91378
336.00	0.91418
340.00	0.91458
344.00	0.91498
348.00	0.91537
352.00	0.91577
356.00	0.91617
360.00	0.91657
364.00	0.91696
368.00	0.91775
372.00	0.91815
376.00	0.91894
380.00	0.91933
384.00	0.91973
388.00	0.91973
392.00	0.92012
396.00	0.92052
400.00	0.92052
404.00	0.92091
408.00	0.92091
412.00	0.92091
416.00	0.92091
420.00	0.92130
424.00	0.92130
428.00	0.92130
432.00	0.92170
436.00	0.92170
440.00	0.92130
444.00	0.92091
448.00	0.92091
452.00	0.92052
456.00	0.92012
460.00	0.91973
464.00	0.91973
468.00	0.91933
472.00	0.91894
476.00	0.91894
480.00	0.91855
484.00	0.91855
488.00	0.91855
492.00	0.91815
496.00	0.91775
500.00	0.91736
504.00	0.91696
508.00	0.91617
512.00	0.91577
516.00	0.91537
520.00	0.91498
524.00	0.91458
528.00	0.91418
532.00	0.91378
536.00	0.91378
540.00	0.91338
544.00	0.91298
548.00	0.91258
552.00	0.91258
556.00	0.91258
560.00	0.91218
564.00	0.91218
568.00	0.91218
572.00	0.91218
576.00	0.91178
580.00	0.91178
584.00	0.91098
588.00	0.91057
592.00	0.90977
596.00	0.90937
600.00	0.90896
604.00	0.90816
608.00	0.90775
612.00	0.90735
616.00	0.90694
620.00	0.90654
624.00	0.90613
628.00	0.90572
632.00	0.90572
636.00	0.90532
640.00	0.90491
644.00	0.90450
648.00	0.90450
652.00	0.90328
656.00	0.90123
660.00	0.90041
664.00	0.89835
668.00	0.89670
672.00	0.89587
676.00	0.89378
680.00	0.89295
684.00	0.89085
688.00	0.88959
692.00	0.88833
696.00	0.88706
700.00	0.88536
704.00	0.88451
708.00	0.88366
712.00	0.88237
716.00	0.88152
720.00	0.88066
724.00	0.87980
728.00	0.87893
732.00	0.87807
736.00	0.87721
740.00	0.87634
744.00	0.87547
748.00	0.87460
752.00	0.87373
756.00	0.87241
760.00	0.87154
764.00	0.87066
768.00	0.86934
772.00	0.86845
776.00	0.86757
780.00	0.86668
784.00	0.86535
788.00	0.86446
792.00	0.86357
796.00	0.86222
800.00	0.86132
804.00	0.86132
808.00	0.86132
812.00	0.86088
816.00	0.86088
820.00	0.86088
824.00	0.86088
828.00	0.86088
832.00	0.86043
836.00	0.86043
840.00	0.86043
844.00	0.86043
848.00	0.85997
852.00	0.86132
856.00	0.86312
860.00	0.86490
864.00	0.86713
868.00	0.86890
872.00	0.87066
876.00	0.87241
880.00	0.87416
884.00	0.87590
888.00	0.87764
892.00	0.87937
896.00	0.88109
900.00	0.88280
904.00	0.88493
908.00	0.88790
912.00	0.89001
916.00	0.89169
920.00	0.89503
924.00	0.89670
928.00	0.89918
932.00	0.90123
936.00	0.90450
940.00	0.90572
944.00	0.90775
948.00	0.90977
952.00	0.91138
956.00	0.91178
960.00	0.91218
964.00	0.91258
968.00	0.91298
972.00	0.91378
976.00	0.91418
980.00	0.91458
984.00	0.91498
988.00	0.91537
992.00	0.91577
996.00	0.91617
1000.0	0.91696
1004.0	0.91736
1008.0	0.91775
1012.0	0.91815
1016.0	0.91855
1020.0	0.91894
1024.0	0.91933
1028.0	0.91973
1032.0	0.92012
1036.0	0.92052
1040.0	0.92091
1044.0	0.92130
1048.0	0.92170
1052.0	0.92209
1056.0	0.92248
1060.0	0.92287
1064.0	0.92326
1068.0	0.92365
1072.0	0.92404
1076.0	0.92443
1080.0	0.92482
1084.0	0.92521
1088.0	0.92560
1092.0	0.92599
1096.0	0.92638
1100.0	0.92677
1104.0	0.92716
1108.0	0.92754
1112.0	0.92793
1116.0	0.92832
1120.0	0.92832
1124.0	0.92870
1128.0	0.92909
1132.0	0.92948
1136.0	0.92986
1140.0	0.93025
1144.0	0.93063
1148.0	0.93063
1152.0	0.93102
1156.0	0.93140
1160.0	0.93179
1164.0	0.93217
1168.0	0.93255
1172.0	0.93255
1176.0	0.93294
1180.0	0.93332
1184.0	0.93370
1188.0	0.93408
1192.0	0.93408
1196.0	0.93447
1200.0	0.93485